Energy_(eV)	Live_Counts
9550.0	3.46
9550.25	4.2
9550.5	4.69
9550.75	3.7
9551.0	5.43
9551.25	3.46
9551.5	6.17
9551.75	5.68
9552.0	5.68
9552.25	4.69
9552.5	5.43
9552.75	3.21
9553.0	5.43
9553.25	5.93
9553.5	4.44
9553.75	5.68
9554.0	4.2
9554.25	5.67
9554.5	4.45
9554.75	5.68
9555.0	5.93
9555.25	6.67
9555.5	3.95
9555.75	6.42
9556.0	6.42
9556.25	6.17
9556.5	9.87
9556.75	5.92
9557.0	7.41
9557.25	10.9
9557.5	7.16
9557.75	7.16
9558.0	10.9
9558.25	9.63
9558.5	8.64
9558.75	9.88
9559.0	8.89
9559.25	10.9
9559.5	12.3
9559.75	8.4
9560.0	10.1
9560.25	10.6
9560.5	13.3
9560.75	14.6
9561.0	12.8
9561.25	13.8
9561.5	15.1
9561.75	17.3
9562.0	18.3
9562.25	19.0
9562.5	20.7
9562.75	19.5
9563.0	21.5
9563.25	22.2
9563.5	25.7
9563.75	21.0
9564.0	25.2
9564.25	30.1
9564.5	25.9
9564.75	29.4
9565.0	27.9
9565.25	32.6
9565.5	35.5
9565.75	38.8
9566.0	36.3
9566.25	43.2
9566.5	39.3
9566.75	43.5
9567.0	46.2
9567.25	57.5
9567.5	52.1
9567.75	57.8
9568.0	53.6
9568.25	68.9
9568.5	65.9
9568.75	77.3
9569.0	82.7
9569.25	91.9
9569.5	95.8
9569.75	113.0
9570.0	125.0
9570.25	145.0
9570.5	150.0
9570.75	165.0
9571.0	179.0
9571.25	196.0
9571.5	205.0
9571.75	214.0
9572.0	219.0
9572.25	229.0
9572.5	242.0
9572.75	247.0
9573.0	250.0
9573.25	260.0
9573.5	271.0
9573.75	291.0
9574.0	283.0
9574.25	284.0
9574.5	319.0
9574.75	294.0
9575.0	265.0
9575.25	240.0
9575.5	228.0
9575.75	220.0
9576.0	188.0
9576.25	182.0
9576.5	156.0
9576.75	148.0
9577.0	137.0
9577.25	123.0
9577.5	101.0
9577.75	115.0
9578.0	98.0
9578.25	92.3
9578.5	90.1
9578.75	82.5
9579.0	69.1
9579.25	72.8
9579.5	73.3
9579.75	72.1
9580.0	53.8
9580.25	51.6
9580.5	54.3
9580.75	46.7
9581.0	45.4
9581.25	38.5
9581.5	39.0
9581.75	38.0
9582.0	37.8
9582.25	37.3
9582.5	29.1
9582.75	35.1
9583.0	25.9
9583.25	33.6
9583.5	21.2
9583.75	24.0
9584.0	18.5
9584.25	19.8
9584.5	20.5
9584.75	17.8
9585.0	14.8
9585.25	14.6
9585.5	10.9
9585.75	10.9
9586.0	17.8
9586.25	11.6
9586.5	12.6
9586.75	11.9
9587.0	11.1
9587.25	7.65
9587.5	10.4
9587.75	10.9
9588.0	10.9
9588.25	9.88
9588.5	10.1
9588.75	6.67
9589.0	8.14
9589.25	6.42
9589.5	7.9
9589.75	6.17
9590.0	5.93
9590.25	6.17
9590.5	5.19
9590.75	6.42
9591.0	6.42
9591.25	8.4
9591.5	3.21
9591.75	5.68
9592.0	3.46
9592.25	3.7
9592.5	4.69
9592.75	4.44
9593.0	5.93
9593.25	2.96
9593.5	3.95
9593.75	2.96
9594.0	2.47
9594.25	6.17
9594.5	1.98
9594.75	4.69
9595.0	2.47
9595.25	3.46
9595.5	2.96
9595.75	3.46
9596.0	3.21
9596.25	2.96
9596.5	3.21
9596.75	1.97
9597.0	1.73
9597.25	1.97
9597.5	2.96
9597.75	1.23
9598.0	2.72
9598.25	1.97
9598.5	1.98
9598.75	3.21
9599.0	1.48
9599.25	1.97
9599.5	1.48
9599.75	3.21
9600.0	2.22
9600.25	2.22
9600.5	2.72
9600.75	1.98
9601.0	0.988
9601.25	2.47
9601.5	1.23
9601.75	1.97
9602.0	2.22
9602.25	1.48
9602.5	1.73
9602.75	1.23
9603.0	0.494
9603.25	2.47
9603.5	1.73
9603.75	1.23
9604.0	1.23
9604.25	1.48
9604.5	0.741
9604.75	1.98
9605.0	2.22
9605.25	1.23
9605.5	2.22
9605.75	0.247
9606.0	2.22
9606.25	1.23
9606.5	2.47
9606.75	0.741
9607.0	1.97
9607.25	0.987
9607.5	1.48
9607.75	1.97
9608.0	0.494
9608.25	0.988
9608.5	1.48
9608.75	0.741
9609.0	1.48
9609.25	1.73
9609.5	0.741
9609.75	0.494
9610.0	2.96
9610.25	1.23
9610.5	1.97
9610.75	1.23
9611.0	1.23
9611.25	0.741
9611.5	0.988
9611.75	1.48
9612.0	0.988
9612.25	1.73
9612.5	1.97
9612.75	1.97
9613.0	0.741
9613.25	1.23
9613.5	0.741
9613.75	0.741
9614.0	0.247
9614.25	1.23
9614.5	1.48
9614.75	1.23
9615.0	1.97
9615.25	1.73
9615.5	1.23
9615.75	2.47
9616.0	0.988
9616.25	0.741
9616.5	0.247
9616.75	1.23
9617.0	0.494
9617.25	0.494
9617.5	1.48
9617.75	2.22
9618.0	0.988
9618.25	0.741
9618.5	1.48
9618.75	0.988
9619.0	0.987
9619.25	0.741
9619.5	0.247
9619.75	0.247
9620.0	1.23
9620.25	1.23
9620.5	1.23
9620.75	0.494
9621.0	0.988
9621.25	0.741
9621.5	0.988
9621.75	0.247
9622.0	1.98
9622.25	0.494
9622.5	1.48
9622.75	1.98
9623.0	0.988
9623.25	0.741
9623.5	0.494
9623.75	0.988
9624.0	0.987
9624.25	0.247
9624.5	0.741
9624.75	0.988
9625.0	0.987
9625.25	1.48
9625.5	0.987
9625.75	1.73
9626.0	1.23
9626.25	1.48
9626.5	1.98
9626.75	2.22
9627.0	0.741
9627.25	0.494
9627.5	0.247
9627.75	0.741
9628.0	1.97
9628.25	0.987
9628.5	0.494
9628.75	0.0
9629.0	0.247
9629.25	0.494
9629.5	0.741
9629.75	0.988
9630.0	1.07
9630.25	0.849
9630.5	1.05
9630.75	0.974
9631.0	0.974
9631.25	0.874
9631.5	1.02
9631.75	0.899
9632.0	1.17
9632.25	0.949
9632.5	0.949
9632.75	0.724
9633.0	0.899
9633.25	0.974
9633.5	0.824
9633.75	0.849
9634.0	1.02
9634.25	0.574
9634.5	1.02
9634.75	1.25
9635.0	0.849
9635.25	0.999
9635.5	0.974
9635.75	0.874
9636.0	1.02
9636.25	0.799
9636.5	1.07
9636.75	0.899
9637.0	0.899
9637.25	0.899
9637.5	0.774
9637.75	0.874
9638.0	1.17
9638.25	1.07
9638.5	0.774
9638.75	0.749
9639.0	0.849
9639.25	0.949
9639.5	0.949
9639.75	1.1
9640.0	0.924
9640.25	1.05
9640.5	1.05
9640.75	1.2
9641.0	0.899
9641.25	0.824
9641.5	0.924
9641.75	0.924
9642.0	0.899
9642.25	0.849
9642.5	0.924
9642.75	1.3
9643.0	0.774
9643.25	0.974
9643.5	1.05
9643.75	0.899
9644.0	0.849
9644.25	1.22
9644.5	1.07
9644.75	1.15
9645.0	0.849
9645.25	1.22
9645.5	0.699
9645.75	0.774
9646.0	1.12
9646.25	1.17
9646.5	1.2
9646.75	0.999
9647.0	0.924
9647.25	1.2
9647.5	1.17
9647.75	0.949
9648.0	0.974
9648.25	0.899
9648.5	1.1
9648.75	0.949
9649.0	0.974
9649.25	1.2
9649.5	1.47
9649.75	1.6
9650.0	1.52
9650.25	1.15
9650.5	1.62
9650.75	1.5
9651.0	1.62
9651.25	1.72
9651.5	1.95
9651.75	1.82
9652.0	2.02
9652.25	2.62
9652.5	2.75
9652.75	2.5
9653.0	2.7
9653.25	2.57
9653.5	2.9
9653.75	3.02
9654.0	2.97
9654.25	3.4
9654.5	3.25
9654.75	3.25
9655.0	3.07
9655.25	3.02
9655.5	2.97
9655.75	2.97
9656.0	3.45
9656.25	2.87
9656.5	3.12
9656.75	3.5
9657.0	3.12
9657.25	3.7
9657.5	3.75
9657.75	3.57
9658.0	3.85
9658.25	3.95
9658.5	3.65
9658.75	3.52
9659.0	3.42
9659.25	3.57
9659.5	3.15
9659.75	2.32
9660.0	2.5
9660.25	2.07
9660.5	2.1
9660.75	1.8
9661.0	1.85
9661.25	1.22
9661.5	1.77
9661.75	1.82
9662.0	1.47
9662.25	1.32
9662.5	1.3
9662.75	1.22
9663.0	1.12
9663.25	1.22
9663.5	1.25
9663.75	1.17
9664.0	1.45
9664.25	1.22
9664.5	1.2
9664.75	0.974
9665.0	1.15
9665.25	1.3
9665.5	0.974
9665.75	1.27
9666.0	1.12
9666.25	1.35
9666.5	1.07
9666.75	1.17
9667.0	0.799
9667.25	0.674
9667.5	1.12
9667.75	0.874
9668.0	1.1
9668.25	0.599
9668.5	0.449
9668.75	0.474
9669.0	0.799
9669.25	0.849
9669.5	0.649
9669.75	0.599
9670.0	0.549
9670.25	0.749
9670.5	0.549
9670.75	0.674
9671.0	0.399
9671.25	0.524
9671.5	0.449
9671.75	0.599
9672.0	0.424
9672.25	0.499
9672.5	0.499
9672.75	0.424
9673.0	0.524
9673.25	0.699
9673.5	0.549
9673.75	0.574
9674.0	0.599
9674.25	0.325
9674.5	0.549
9674.75	0.649
9675.0	0.35
9675.25	0.524
9675.5	0.574
9675.75	0.325
9676.0	0.375
9676.25	0.574
9676.5	0.649
9676.75	0.3
9677.0	0.399
9677.25	0.449
9677.5	0.524
9677.75	0.649
9678.0	0.624
9678.25	0.524
9678.5	0.399
9678.75	0.549
9679.0	0.524
9679.25	0.699
9679.5	0.35
9679.75	0.424
9680.0	0.674
9680.25	0.624
9680.5	0.574
9680.75	0.4
9681.0	0.574
9681.25	0.375
9681.5	0.499
9681.75	0.499
9682.0	0.549
9682.25	0.449
9682.5	0.499
9682.75	0.275
9683.0	0.35
9683.25	0.424
9683.5	0.375
9683.75	0.25
9684.0	0.424
9684.25	0.375
9684.5	0.275
9684.75	0.599
9685.0	0.574
9685.25	0.325
9685.5	0.25
9685.75	0.375
9686.0	0.35
9686.25	0.3
9686.5	0.449
9686.75	0.599
9687.0	0.424
9687.25	0.449
9687.5	0.25
9687.75	0.35
9688.0	0.574
9688.25	0.624
9688.5	0.25
9688.75	0.699
9689.0	0.474
9689.25	0.325
9689.5	0.275
9689.75	0.524
9690.0	0.474
9690.25	0.449
9690.5	0.175
9690.75	0.3
9691.0	0.35
9691.25	0.399
9691.5	0.375
9691.75	0.524
9692.0	0.474
9692.25	0.549
9692.5	0.35
9692.75	0.449
9693.0	0.424
9693.25	0.35
9693.5	0.499
9693.75	0.399
9694.0	0.4
9694.25	0.275
9694.5	0.375
9694.75	0.424
9695.0	0.524
9695.25	0.2
9695.5	0.35
9695.75	0.3
9696.0	0.275
9696.25	0.375
9696.5	0.325
9696.75	0.449
9697.0	0.524
9697.25	0.399
9697.5	0.275
9697.75	0.325
9698.0	0.399
9698.25	0.35
9698.5	0.474
9698.75	0.399
9699.0	0.275
9699.25	0.35
9699.5	0.375
9699.75	0.4
9700.0	0.4
