Energy_(eV)	Live_Counts
9550.0	4.742000000000001
9550.25	4.248
9550.5	4.742
9550.75	4.888
9551.0	4.148000000000001
9551.25	5.0840000000000005
9551.5	4.542
9551.75	5.8759999999999994
9552.0	5.63
9552.25	4.792
9552.5	5.086
9552.75	4.394
9553.0	5.086
9553.25	6.074
9553.5	5.234
9553.75	5.828
9554.0	4.888
9554.25	6.664
9554.5	5.234
9554.75	5.48
9555.0	6.0760000000000005
9555.25	5.68
9555.5	6.418000000000001
9555.75	6.616
9556.0	6.714
9556.25	7.01
9556.5	7.651999999999999
9556.75	6.566
9557.0	7.852000000000001
9557.25	9.296000000000001
9557.5	7.702
9557.75	7.702
9558.0	8.848
9558.25	7.952000000000001
9558.5	8.994
9558.75	8.842000000000002
9559.0	8.75
9559.25	9.290000000000001
9559.5	12.1
9559.75	9.978
9560.0	11.554
9560.25	10.714000000000002
9560.5	12.02
9560.75	14.14
9561.0	13.3
9561.25	14.360000000000003
9561.5	14.66
9561.75	14.319999999999999
9562.0	16.740000000000002
9562.25	17.14
9562.5	18.96
9562.75	20.84
9563.0	20.380000000000003
9563.25	20.7
9563.5	23.98
9563.75	23.259999999999998
9564.0	24.419999999999998
9564.25	27.560000000000002
9564.5	29.060000000000002
9564.75	29.140000000000004
9565.0	31.1
9565.25	32.0
9565.5	35.0
9565.75	37.04
9566.0	40.64
9566.25	42.12
9566.5	42.1
9566.75	44.3
9567.0	47.14
9567.25	50.900000000000006
9567.5	55.8
9567.75	57.5
9568.0	57.54
9568.25	67.28
9568.5	68.6
9568.75	79.14000000000001
9569.0	84.52
9569.25	94.0
9569.5	101.42
9569.75	117.8
9570.0	130.2
9570.25	136.6
9570.5	151.0
9570.75	171.2
9571.0	175.0
9571.25	197.6
9571.5	201.0
9571.75	214.6
9572.0	217.0
9572.25	225.2
9572.5	236.2
9572.75	241.2
9573.0	248.4
9573.25	260.4
9573.5	271.4
9573.75	285.8
9574.0	285.2
9574.25	286.8
9574.5	296.4
9574.75	279.4
9575.0	268.2
9575.25	250.4
9575.5	234.8
9575.75	213.6
9576.0	191.2
9576.25	179.0
9576.5	155.2
9576.75	143.4
9577.0	130.6
9577.25	120.4
9577.5	108.0
9577.75	106.2
9578.0	99.67999999999999
9578.25	96.24000000000001
9578.5	91.02000000000001
9578.75	83.03999999999999
9579.0	75.29999999999998
9579.25	77.4
9579.5	67.84
9579.75	65.89999999999999
9580.0	60.879999999999995
9580.25	54.14
9580.5	51.760000000000005
9580.75	46.78000000000001
9581.0	45.720000000000006
9581.25	40.4
9581.5	37.32000000000001
9581.75	35.8
9582.0	33.74
9582.25	32.620000000000005
9582.5	31.4
9582.75	30.32
9583.0	26.78
9583.25	26.96
9583.5	22.080000000000002
9583.75	22.34
9584.0	19.32
9584.25	19.4
9584.5	18.84
9584.75	19.44
9585.0	15.3
9585.25	16.54
9585.5	14.02
9585.75	14.02
9586.0	13.479999999999999
9586.25	12.379999999999999
9586.5	12.058
9586.75	12.040000000000001
9587.0	10.716000000000001
9587.25	10.266
9587.5	10.081999999999999
9587.75	10.146
9588.0	9.096
9588.25	8.982000000000001
9588.5	8.242
9588.75	7.656000000000001
9589.0	8.246
9589.25	8.748000000000001
9589.5	7.156000000000001
9589.75	7.06
9590.0	6.715999999999999
9590.25	7.26
9590.5	4.890000000000001
9590.75	6.912000000000001
9591.0	5.433999999999999
9591.25	6.074000000000001
9591.5	4.890000000000001
9591.75	5.286
9592.0	4.248
9592.25	4.593999999999999
9592.5	5.0840000000000005
9592.75	4.938000000000001
9593.0	4.642
9593.25	3.5540000000000007
9593.5	4.790000000000001
9593.75	4.5920000000000005
9594.0	4.000000000000001
9594.25	3.7520000000000002
9594.5	3.0120000000000005
9594.75	3.21
9595.0	3.85
9595.25	3.2600000000000002
9595.5	2.8140000000000005
9595.75	3.4579999999999997
9596.0	2.716
9596.25	3.2600000000000002
9596.5	2.914
9596.75	2.222
9597.0	2.6660000000000004
9597.25	2.6659999999999995
9597.5	2.8160000000000003
9597.75	2.37
9598.0	2.3200000000000003
9598.25	2.716
9598.5	3.3600000000000003
9598.75	2.7660000000000005
9599.0	2.616
9599.25	2.664
9599.5	2.2220000000000004
9599.75	2.47
9600.0	2.0234
9600.25	1.578
9600.5	1.8760000000000001
9600.75	2.568
9601.0	1.1832
9601.25	2.3720000000000003
9601.5	1.826
9601.75	1.9739999999999998
9602.0	2.022
9602.25	1.5796000000000003
9602.5	1.6300000000000001
9602.75	1.1336
9603.0	1.4308
9603.25	1.828
9603.5	1.4818000000000002
9603.75	1.3816
9604.0	1.8780000000000001
9604.25	1.5298000000000003
9604.5	1.4818000000000002
9604.75	2.1740000000000004
9605.0	1.4296
9605.25	1.4802
9605.5	1.5308
9605.75	1.8774000000000002
9606.0	1.7782000000000004
9606.25	1.3800000000000001
9606.5	1.9276
9606.75	1.1366
9607.0	1.7282
9607.25	1.4316
9607.5	1.2344000000000002
9607.75	1.282
9608.0	1.3844
9608.25	1.4808
9608.5	1.3318
9608.75	1.3338
9609.0	1.4804
9609.25	1.5302000000000002
9609.5	1.136
9609.75	1.2344000000000002
9610.0	1.4305999999999996
9610.25	1.2815999999999999
9610.5	1.2329999999999999
9610.75	1.0856
9611.0	1.0356
9611.25	0.7893999999999999
9611.5	1.136
9611.75	1.1341999999999999
9612.0	0.9388
9612.25	1.531
9612.5	1.0358
9612.75	1.3823999999999999
9613.0	1.4319999999999997
9613.25	1.0866
9613.5	0.9366
9613.75	1.284
9614.0	0.8862
9614.25	1.4309999999999998
9614.5	1.1830000000000003
9614.75	0.8385999999999999
9615.0	1.3809999999999998
9615.25	1.3828000000000003
9615.5	0.8384
9615.75	1.7782
9616.0	0.8888
9616.25	1.036
9616.5	0.5928000000000001
9616.75	1.0358
9617.0	0.8879999999999999
9617.25	0.8884000000000001
9617.5	1.48
9617.75	1.5288
9618.0	0.7904
9618.25	0.9875999999999999
9618.5	0.6911999999999999
9618.75	1.0876
9619.0	1.235
9619.25	1.1368
9619.5	0.9878
9619.75	0.6421999999999999
9620.0	1.184
9620.25	0.8878
9620.5	0.9872
9620.75	0.9872
9621.0	1.136
9621.25	0.8872
9621.5	0.79
9621.75	0.7896
9622.0	1.1854
9622.25	0.9887999999999998
9622.5	1.1344
9622.75	0.9878
9623.0	0.74
9623.25	0.8394
9623.5	0.6424
9623.75	0.6916
9624.0	0.8879999999999999
9624.25	0.4446
9624.5	0.8393999999999998
9624.75	0.938
9625.0	1.1352
9625.25	0.9871999999999999
9625.5	0.9855999999999998
9625.75	1.2838
9626.0	1.036
9626.25	1.1854
9626.5	1.5330000000000001
9626.75	1.4308
9627.0	0.6916
9627.25	0.8388
9627.5	0.5928000000000001
9627.75	0.642
9628.0	1.1338000000000001
9628.25	0.889
9628.5	0.7389999999999999
9628.75	0.8876000000000002
9629.0	0.8393999999999998
9629.25	0.9394
9629.5	0.889
9629.75	0.986
9630.0	0.9182
9630.25	0.7881999999999999
9630.5	1.0276
9630.75	1.0134
9631.0	1.0184
9631.25	0.8981999999999999
9631.5	0.9634
9631.75	0.8789999999999999
9632.0	1.0718
9632.25	0.8642
9632.5	0.9784
9632.75	0.794
9633.0	0.8231999999999999
9633.25	0.9432
9633.5	0.9024000000000001
9633.75	0.9194000000000001
9634.0	0.9625999999999999
9634.25	0.9084
9634.5	0.9826
9634.75	0.9944000000000001
9635.0	0.9886000000000001
9635.25	0.9474
9635.5	1.0194
9635.75	0.9381999999999999
9636.0	1.0128
9636.25	0.9282
9636.5	0.8882000000000001
9636.75	0.9434000000000001
9637.0	0.9934000000000001
9637.25	0.9232000000000001
9637.5	0.9692000000000001
9637.75	0.9994
9638.0	1.0226
9638.25	0.9583999999999999
9638.5	0.9334
9638.75	0.9092
9639.0	1.0024000000000002
9639.25	0.9884000000000001
9639.5	0.9892
9639.75	1.0086
9640.0	0.874
9640.25	0.9836
9640.5	0.9284000000000001
9640.75	0.9793999999999998
9641.0	1.0436
9641.25	0.9032
9641.5	0.9283999999999999
9641.75	0.9481999999999999
9642.0	1.0034
9642.25	0.9693999999999999
9642.5	0.8632
9642.75	1.0936
9643.0	0.8089999999999999
9643.25	0.9836
9643.5	1.0094
9643.75	0.9481999999999999
9644.0	0.9774
9644.25	0.9682000000000001
9644.5	0.9766
9644.75	1.0526000000000002
9645.0	0.9683999999999999
9645.25	1.0336000000000003
9645.5	1.0335999999999999
9645.75	0.9424000000000001
9646.0	1.0436
9646.25	1.0524
9646.5	1.1587999999999998
9646.75	1.0878
9647.0	1.0784
9647.25	1.1397999999999997
9647.5	1.0626000000000002
9647.75	1.1396
9648.0	1.1546
9648.25	1.0544
9648.5	1.2038
9648.75	1.0425999999999997
9649.0	1.0825999999999998
9649.25	1.234
9649.5	1.326
9649.75	1.2538000000000002
9650.0	1.2167999999999999
9650.25	1.3240000000000003
9650.5	1.3728000000000002
9650.75	1.482
9651.0	1.5420000000000003
9651.25	1.608
9651.5	1.7079999999999997
9651.75	1.842
9652.0	1.902
9652.25	2.2399999999999998
9652.5	2.348
9652.75	2.3939999999999997
9653.0	2.666
9653.25	2.54
9653.5	2.7079999999999997
9653.75	2.9159999999999995
9654.0	2.882
9654.25	3.0680000000000005
9654.5	3.028
9654.75	3.258
9655.0	3.026
9655.25	3.162
9655.5	3.0759999999999996
9655.75	2.808
9656.0	3.0460000000000003
9656.25	3.232
9656.5	3.132
9656.75	3.4799999999999995
9657.0	3.338
9657.25	3.5380000000000003
9657.5	3.7560000000000002
9657.75	3.6659999999999995
9658.0	3.492
9658.25	3.668
9658.5	3.518
9658.75	3.592
9659.0	3.3519999999999994
9659.25	3.146
9659.5	3.038
9659.75	2.5780000000000003
9660.0	2.488
9660.25	2.332
9660.5	2.114
9660.75	1.9619999999999997
9661.0	1.948
9661.25	1.5899999999999999
9661.5	1.7920000000000003
9661.75	1.596
9662.0	1.4760000000000002
9662.25	1.322
9662.5	1.3359999999999999
9662.75	1.2938
9663.0	1.1720000000000002
9663.25	1.1465999999999998
9663.5	1.262
9663.75	1.1076000000000001
9664.0	1.2178
9664.25	1.2578
9664.5	1.222
9664.75	0.9974000000000001
9665.0	1.1179999999999999
9665.25	1.0845999999999998
9665.5	1.0744
9665.75	1.1118000000000001
9666.0	1.0626000000000002
9666.25	1.0784
9666.5	0.8932
9666.75	1.1478
9667.0	1.0236
9667.25	0.819
9667.5	0.9334
9667.75	0.9391999999999999
9668.0	0.8692
9668.25	0.7489999999999999
9668.5	0.7592
9668.75	0.764
9669.0	0.8042
9669.25	0.7539999999999999
9669.5	0.5740000000000001
9669.75	0.609
9670.0	0.5890000000000001
9670.25	0.599
9670.5	0.504
9670.75	0.5042
9671.0	0.554
9671.25	0.5189999999999999
9671.5	0.47919999999999996
9671.75	0.5242
9672.0	0.48439999999999994
9672.25	0.5039999999999999
9672.5	0.4394
9672.75	0.5042
9673.0	0.484
9673.25	0.5589999999999999
9673.5	0.4944
9673.75	0.509
9674.0	0.5042
9674.25	0.46419999999999995
9674.5	0.499
9674.75	0.5640000000000001
9675.0	0.39960000000000007
9675.25	0.5239999999999999
9675.5	0.5239999999999999
9675.75	0.5241999999999999
9676.0	0.4391999999999999
9676.25	0.49399999999999994
9676.5	0.48919999999999997
9676.75	0.5042000000000001
9677.0	0.549
9677.25	0.5542
9677.5	0.4944
9677.75	0.5042000000000001
9678.0	0.6289999999999999
9678.25	0.5591999999999999
9678.5	0.5690000000000001
9678.75	0.484
9679.0	0.539
9679.25	0.5391999999999999
9679.5	0.5642
9679.75	0.534
9680.0	0.6492000000000001
9680.25	0.5439999999999999
9680.5	0.504
9680.75	0.5044
9681.0	0.4991999999999999
9681.25	0.3946
9681.5	0.4194
9681.75	0.4692
9682.0	0.49899999999999994
9682.25	0.42440000000000005
9682.5	0.4542
9682.75	0.37960000000000005
9683.0	0.44939999999999997
9683.25	0.3594
9683.5	0.5542
9683.75	0.4044
9684.0	0.36960000000000004
9684.25	0.45920000000000005
9684.5	0.34480000000000005
9684.75	0.45919999999999994
9685.0	0.4344
9685.25	0.4194
9685.5	0.3
9685.75	0.3248
9686.0	0.3746
9686.25	0.39459999999999995
9686.5	0.37940000000000007
9686.75	0.41459999999999997
9687.0	0.4744
9687.25	0.4444
9687.5	0.305
9687.75	0.38960000000000006
9688.0	0.4342
9688.25	0.46440000000000003
9688.5	0.3894
9688.75	0.4894
9689.0	0.41419999999999996
9689.25	0.3498
9689.5	0.3496
9689.75	0.4244
9690.0	0.39459999999999995
9690.25	0.33980000000000005
9690.5	0.34459999999999996
9690.75	0.4394
9691.0	0.4194
9691.25	0.4191999999999999
9691.5	0.3748
9691.75	0.48900000000000005
9692.0	0.42939999999999995
9692.25	0.39940000000000003
9692.5	0.38960000000000006
9692.75	0.449
9693.0	0.4539999999999999
9693.25	0.4046
9693.5	0.4342
9693.75	0.4044
9694.0	0.3798
9694.25	0.31980000000000003
9694.5	0.39979999999999993
9694.75	0.4444
9695.0	0.44420000000000004
9695.25	0.29500000000000004
9695.5	0.3696
9695.75	0.3498
9696.0	0.4096
9696.25	0.36460000000000004
9696.5	0.41459999999999997
9696.75	0.3646
9697.0	0.4144
9697.25	0.4842000000000001
9697.5	0.3846
9697.75	0.3696
9698.0	0.37460000000000004
9698.25	0.40459999999999996
9698.5	0.4044
9698.75	0.32980000000000004
9699.0	0.30999999999999994
9699.25	0.39940000000000003
9699.5	0.3548
9699.75	0.33980000000000005
9700.0	0.3348
